z (nm)	PRZ(pz) Gen	PRZ(pz) Emi	
6.3859	1.6088	1.60434	
19.1577	1.80831	1.79538	
31.9295	1.93825	1.91541	
44.7013	2.00908	1.97601	
57.4731	2.11738	2.07268	
70.2449	2.17574	2.11976	
83.0167	2.29547	2.22584	
95.7885	2.34829	2.26626	
108.56	2.36493	2.27154	
121.332	2.39623	2.29077	
134.104	2.40579	2.28901	
146.876	2.42514	2.29651	
159.648	2.42767	2.28806	
172.419	2.38022	2.23275	
185.191	2.33896	2.18362	
197.963	2.3459	2.17974	
210.735	2.29842	2.12556	
223.507	2.28618	2.10426	
236.278	2.19043	2.00657	
249.05	2.13382	1.94547	
261.822	2.10093	1.90644	
274.594	2.04781	1.84945	
287.366	1.97859	1.77852	
300.137	1.88962	1.69049	
312.909	1.77636	1.58167	
325.681	1.6881	1.49596	
338.453	1.61786	1.42692	
351.225	1.58102	1.38787	
363.996	1.50745	1.31704	
376.768	1.42794	1.24165	
389.54	1.33805	1.15801	
402.312	1.27431	1.09761	
415.084	1.2008	1.02939	
427.855	1.12076	0.956247	
440.627	1.07019	0.908778	
453.399	1.01821	0.860556	
466.171	0.931891	0.783893	
478.943	0.866212	0.725189	
491.714	0.801308	0.66767	
504.486	0.746782	0.619313	
517.258	0.687355	0.567331	
530.03	0.631418	0.518701	
542.802	0.582221	0.47602	
555.574	0.51313	0.41755	
568.345	0.496674	0.402236	
581.117	0.441974	0.356262	
593.889	0.400927	0.321633	
606.661	0.37147	0.296604	
619.433	0.312577	0.248403	
632.204	0.288421	0.228118	
644.976	0.245493	0.193247	
657.748	0.211384	0.165613	
670.52	0.193444	0.150838	
683.292	0.174811	0.135669	
696.063	0.148125	0.114412	
708.835	0.131977	0.101456	
721.607	0.114614	0.0876944	
734.379	0.1019	0.0775965	
747.151	0.086245	0.0653673	
759.922	0.0736838	0.055581	
772.694	0.0588107	0.0441525	
785.466	0.0511442	0.0382175	
798.238	0.0415624	0.0309103	
811.01	0.0302872	0.0224193	
823.781	0.0215965	0.0159102	
836.553	0.0161016	0.0118069	
849.325	0.013688	0.00998816	
862.097	0.0106065	0.00770327	
874.869	0.00839644	0.00606881	
887.64	0.00620151	0.00446154	
900.412	0.00560717	0.00401547	
913.184	0.00327561	0.00233407	
925.956	0.00258928	0.00183649	
938.728	0.00152061	0.00107341	
951.499	0.00137507	0.000966017	
964.271	0.000845053	0.000591011	
977.043	0.000228635	0.00015912	
989.815	0.00024052	0.000166518	
1002.59	0.000130316	8.99271e-05	
1015.36	5.30493e-05	3.64013e-05	
1028.13	3.72796e-05	2.54589e-05	
1040.9	4.74209e-05	3.22457e-05	
1053.67	0	0	
1066.45	0	0	
1079.22	0	0	
1091.99	0	0	
1104.76	0	0	
1117.53	0	0	
1130.3	0	0	
1143.08	0	0	
1155.85	0	0	
1168.62	0	0	
1181.39	0	0	
1194.16	0	0	
1206.94	0	0	
1219.71	0	0	
1232.48	0	0	
1245.25	0	0	
1258.02	0	0	
